Compound Id	AutocorrelationPolarizability [ATSp2]
692	5.773
6153	16.222
127983	3.160
291	0.0
21106179	12.978
16425	126.470
23208	4.128
6105	9.210
11148	4.892
274	9.539
6086	9.850
9256	55.471
923	9.420
937	0.0
6085	15.218
217	0.0
9484	40.165
22814	0.0
22408	0.0
9286	48.587
12577	48.2
6084	14.973
6128	32.546
9243	24.157
62827	105.805
6132	42.292
391	0.0
38403	123.247
1087	37.212
16641	24.012
7954	47.441
864	8.309
11153	30.714
748	5.853
6095	35.201
6094	46.125
518	N/A
16841	110.041
6148	91.906
2056044	191.220
6151	110.674
6087	18.215
9095782	156.371
4514529	0.0
10675065	154.911
21106169	59.634
172	26.506
763	3.642
7956	29.341
7577	40.965
6089	13.017
6111	67.403
29040	149.689
10606755	147.326
6098	56.602
6120	98.2
13837650	115.755
13853215	210.602
61149	200.248
12197	76.423
682	32.242
61346	182.865
7558	73.883
7556	91.333
454215	160.098
7557	94.182
278	16.285
7957	101.472
654	41.354
9461	139.989
6130	88.367
7555	88.529
11727	43.469
1114	89.752
14441700	145.668
8960	11.216
6083	29.452
454209	123.543
56442	91.149
6101	42.476
6097	55.131
175	65.702
4449912	91.149
6102	25.988
9016	184.514
7559	64.281
2018165	81.077
7733	110.118
3644	75.118
6156	123.449
512	62.006
171	47.106
9646	175.942
9254	188.181
7734	77.086
9411	160.096
13835550	79.021
6135	34.975
13837190	79.215
10325078	275.439
7732	106.740
6335	82.779
7738	137.431
14829	164.598
4481813	56.717
10765	158.549
71390	121.823
6149	189.327
13872989	71.904
9391	109.994
6146	141.683
3631	202.010
6121	114.727
61213	140.912
3441	235.412
11099	145.563
11806	120.883
6308	153.833
3168	103.410
6104	64.790
1004	69.475
66567	225.868
1039	81.077
7713	141.680
73583	291.387
6103	77.238
7566	60.730
9994	87.614
10709	106.755
6309	163.763
6088	59.588
13299573	234.604
13836674	104.654
13835316	136.304
6092	78.199
14694	164.462
6313	119.199
11230	143.057
7564	83.722
7616	129.773
2062437	208.627
7712	137.844
4483639	142.063
10437	101.674
30713	165.128
2282428	237.894
6188	318.947
4483638	142.063
7330	204.541
12442	94.759
7546	138.872
9251	242.541
18971812	251.485
71433	186.296
10113	158.788
11755	134.413
7790	131.803
107412	165.637
56144	293.111
56020	145.959
13835977	86.429
256	107.011
10054	201.746
1005	89.244
553742	118.813
558883	145.959
99596	251.363
6333	92.744
6321	113.569
23055	234.741
8525	125.865
6125	132.394
4514586	0.0
11526	98.860
6322	117.577
6320	124.838
13836549	351.975
6163	246.780
62826	206.638
6108	111.696
11729	142.801
14672	198.325
6118	152.535
7730	128.948
11756	84.009
8544	198.044
23255	146.768
6312	128.617
6338	71.808
12201	216.028
62597	118.987
8329688	179.156
13837797	209.232
10653	131.768
13835336	65.129
7782	122.001
21106015	81.201
7727	101.745
558928	118.813
6093	89.610
693	23.761
11110	200.222
6311	116.943
8896	191.642
5977	151.203
7728	86.694
2340753	205.4
6340	234.342
9253	280.462
7626	235.709
7604	210.948
7553	135.904
12209	172.849
394562	110.656
10325184	214.799
83734	289.367
6315	175.157
7627	191.062
7717	105.191
387	130.223
60524	111.026
11109	195.673
63631	220.826
6100	135.696
13866746	333.249
7010	217.167
14998	186.706
12446	217.286
7560	130.905
258	115.504
10053	257.204
124968	212.405
7716	132.316
7552	132.470
7737	150.494
10571	204.356
17619	N/A
11809	130.254
13836713	134.331
13836589	124.489
11833	156.562
13835235	52.428
7767	191.183
7030	133.785
13836021	107.959
10124	249.354
59573	153.929
10777	185.136
6341	154.091
10018	169.449
558020	213.367
12626	171.101
13836591	128.879
11996	254.068
6165	205.865
7714	153.647
13862665	179.193
6042	258.241
7630	149.380
259	138.165
7607	166.039
5894	89.8
21108550	275.033
7772	157.791
21111806	274.878
236	233.878
9614	254.527
62808	214.474
10492	189.834
7736	166.968
11055	312.585
10446	283.115
7463	178.928
7619	292.742
7016	168.844
13871721	119.312
7739	274.869
7706	174.898
7028	222.005
5730	288.931
6316	194.499
8903	195.818
24590970	309.159
21011	178.358
9325	274.569
415	126.857
55090	278.041
10947	182.011
10772140	103.280
28994	56.292
13839553	94.555
3973	267.485
71312	297.944
3951	160.023
592	124.414
8904	195.759
8899	253.051
60329	145.413
6406	211.501
2916	118.447
2293678	292.668
6119	194.133
29015	169.142
11680	184.701
7624	278.694
7615	117.250
7090	369.246
6122	243.153
7024	274.795
55188	270.444
11117	272.842
13835224	101.939
6176	285.146
62249	305.289
13803	167.725
10755	326.110
9377	205.221
15077490	341.426
7823	200.478
11125	172.545
6307	211.974
7787	257.710
6334	105.599
13255	302.676
109838	168.759
11849	202.842
173	61.023
66656	N/A
13837280	224.310
11845	227.675
11094	268.731
13854944	173.223
29000	184.828
8398	188.295
10791	248.707
8733	110.287
10786	306.267
8554	211.418
92731	339.061
7788	265.218
9233	212.537
1020	214.456
11992	248.619
6187	447.195
8158	272.758
11023	278.652
11731	210.488
11207996	269.524
1609	150.945
7721	187.268
1095	282.063
11121	251.684
10498	119.406
7065	256.010
7791	246.216
109705	679.588
7636	200.882
7621	242.599
11551	288.5
13835836	234.921
7711	189.215
8543	170.222
6040	166.871
10445	403.958
11351244	460.017
7770	155.624
23150	273.946
12161	180.584
13874867	214.026
31029	206.250
4444456	174.898
7769	185.226
18607	204.418
10001	210.681
7747	247.276
10788	251.975
23621376	128.903
5993	109.655
8560	246.799
555074	252.764
10437074	304.995
13861343	311.443
7705	193.047
8141	222.601
10512	208.599
11180	295.910
7701	191.150
62589	335.991
7686	334.491
5439	120.010
11056	267.766
7026	236.374
66675	281.339
2005981	140.304
7622	256.063
7684	282.099
8900	111.144
11025	225.573
7475	234.173
59674	144.0
21171407	210.583
11095	221.124
13837537	200.847
10614293	403.958
6326	218.266
56117	252.098
7466	169.723
29036	242.417
7761	246.857
21168808	383.283
11104	351.142
16778	177.394
13835376	214.227
127750	218.462
10790	263.960
2018460	360.071
68503	235.006
13863629	229.107
7674	348.673
1143	56.514
1108	320.438
7029	175.491
29001	195.420
11788	332.758
11732	282.190
7688	274.212
7515	230.291
11794	234.029
13836520	257.795
11678	239.808
2038738	294.137
8562	235.230
29012	227.786
21106535	221.680
13875283	341.863
13867413	148.961
13837702	179.313
5949	211.933
71089	272.477
7551	184.801
11706	239.963
66996	300.871
61487	343.409
10797	337.757
26325086	363.827
7478	188.133
11799	168.112
13839199	296.012
13835459	234.932
11793	242.199
10534	361.311
9326	302.267
63863	198.907
659	139.293
7459	247.653
10787	266.403
12228	N/A
18688	361.856
10795	404.848
55130	306.380
11086	359.204
11841	349.231
12012	226.475
4489	348.132
48024	320.3
11024	250.374
512621	N/A
66655	348.361
21106032	226.554
6330	107.616
11035	338.873
13439	525.644
7021	150.313
7018	173.730
120464	363.047
11864	284.111
4444608	218.299
10948	155.534
11761	418.172
12229	261.733
24099	161.110
22453	325.760
12499	383.437
7833	308.798
7657	313.637
7013	289.184
13837281	360.666
5708	201.254
7703	249.335
4512642	311.747
4516601	310.050
11244	165.807
4516599	311.747
11846	209.556
7812	221.341
10652594	N/A
7766	247.007
844	137.8
13816	159.465
19953955	180.314
7776	244.829
1141	272.136
11857	343.568
66021	302.861
10497	272.686
70715	359.446
21106520	297.859
66809	316.312
10452	371.945
10433	305.204
29107	173.014
10265264	445.690
13874733	298.767
11911	374.143
7811	240.595
13836399	229.998
7676	351.276
7064	278.149
349	303.682
10488	239.681
4514549	0.0
11193	325.286
4512361	310.050
11739	328.162
8552	246.505
8908	334.866
28986	284.691
10526	265.161
17443	294.105
68832	256.770
21800	456.364
10179173	445.690
81815	202.729
29016	304.649
7003	323.531
59447	321.556
13839109	238.723
13865426	264.447
7678	306.967
13842613	386.705
71430	340.041
7760	277.688
971	280.436
10420	290.721
11695	222.767
12643	316.091
7219	395.764
11784	327.730
7482	286.834
13838404	296.056
7679	292.196
15443	377.472
11434292	N/A
65936	296.408
13835209	143.447
7677	338.858
6342	350.808
15438	414.597
1348	223.314
11216	344.816
68328	426.496
4517338	251.262
11194	377.472
11819	314.082
13402	511.434
20843	368.484
55091	383.659
10487	380.736
15954	330.412
11045	284.479
11210	359.260
7521	412.980
7641	416.343
11543	326.455
13638	389.709
11752	155.890
7242	368.396
11843	283.022
7530	411.602
15765	456.364
10101	117.862
16791	277.497
11029	300.001
9633	317.947
28992	358.491
18717	375.430
6106	272.010
99440	362.695
7838	267.983
120621	229.861
9581	363.812
15413	319.649
7710	246.932
7536	296.585
7689	325.628
10710415	273.990
14751	426.109
7073	387.558
24533	344.815
7238	341.734
13835293	255.023
13866593	234.417
13875196	363.003
120489	291.809
10197150	198.161
374462	253.448
13839575	236.396
8569	307.667
11600	308.140
5889	311.012
191367	222.222
6967	423.440
192642	237.716
1078	190.820
23101	430.679
17558	385.079
55123	282.373
68179	291.163
733	130.602
11042	385.319
21132380	389.538
9349	332.325
73412	265.939
235	348.502
7827	347.058
68156	215.255
773	149.970
17880	341.441
20119	209.616
70714	364.732
7225	322.395
7786	382.469
7224	344.408
13448	580.415
7673	414.533
10940	395.546
10939	390.185
13842993	549.417
29025	366.510
1664	289.568
7128	497.826
455420	322.672
11866	265.483
21105905	371.391
10772050	348.811
26765	215.358
7681	410.242
7837	277.572
553642	412.366
21106560	372.862
11830	336.162
7810	305.217
7815	302.902
13842001	307.365
21169510	479.759
11930	307.221
10437135	352.627
7835	297.339
19956441	234.757
78	321.211
67991	336.341
455353	285.081
13875281	460.441
2039535	349.521
13837686	410.837
7240	376.337
123993	417.419
7849	361.262
7803	303.213
11783	389.227
13839441	196.424
18219	387.646
83866	360.698
13875160	446.387
11865	322.587
11077	390.504
21106586	362.826
13835772	375.985
83850	360.698
7221	380.898
11699	277.947
7385	463.776
7391	399.771
7670	455.152
13860335	360.657
19231	308.588
29005	348.050
7443	364.606
22191	316.868
7802	335.079
7389	375.488
7241	318.813
6179	541.498
7694	341.738
24972	462.144
62489	319.936
6286	251.503
7528	414.156
11660	491.507
62230	430.531
8568	339.638
7129	509.269
69371	494.422
10784857	N/A
21105871	371.891
13839082	369.929
63889	381.094
21109330	362.614
10937	398.457
7236	365.611
1577	165.737
122090	516.854
8909	403.039
11716	340.430
12231	393.526
10384035	346.568
6270	389.382
156255	352.990
7659	521.890
11409	507.899
6402	814.910
11919	399.039
7856	348.087
13257	349.550
21106036	404.236
13840690	422.194
7765	307.081
7538	353.990
71787	236.484
441	325.099
2606	365.384
11795	213.940
6287	252.749
14692	429.878
7223	387.458
7685	386.544
123860	315.344
7672	446.321
9970	388.868
13857694	486.570
16159	407.211
7088	631.368
28969	429.427
12069	278.217
11265	379.580
13648	406.407
13876539	420.854
7533	408.728
7131	451.377
7434	381.131
13866817	480.791
6977	525.673
13854136	412.382
447	397.313
13837760	331.360
13835151	402.902
191	302.699
7234	382.603
71628	357.157
7132	435.373
11087	557.989
18801	271.298
13837988	499.027
10696	561.577
76894	N/A
12456	399.263
12445	332.255
69569	497.447
12809	424.543
7138	359.244
10236	536.577
13863618	405.679
4446445	332.550
3954	218.238
55205	265.369
11021	454.715
14198	813.517
29026	322.528
5976	335.920
13875258	514.067
9903	580.618
7183	596.973
21181	272.352
13839416	251.782
7851	354.840
18410	538.549
13865680	456.251
21112023	457.251
503239	428.817
4878	329.334
932	334.787
12010	397.648
63908	370.690
5830	432.028
13839308	417.311
14680	361.186
28682	381.956
14169248	337.657
63310	516.285
11671339	628.602
391428	769.827
122446	345.094
238	393.892
7239	513.6
11863	363.580
2041618	N/A
13851576	476.653
13854248	448.897
10437215	405.506
8070	505.358
370	360.682
455090	420.581
11632	321.807
14840	419.220
2656	853.236
78828	587.203
10422	357.312
20939	660.849
69914	621.557
9976	403.010
73479	468.335
924	480.070
6883	455.022
5979	771.783
577	299.678
13658	572.315
21106366	499.773
7419	527.520
14299946	511.277
331	453.542
7448	571.734
7509	405.840
12632	392.928
61001	590.725
28982	446.806
11604	449.853
62534	469.624
62408	483.777
123207	445.538
75951	376.191
13837787	406.442
13839123	475.014
59483	553.759
18724	605.691
7850	380.472
13875432	404.921
8665	391.149
13839128	473.676
13875219	402.122
456015	452.159
55084	399.388
6974	481.239
8657	393.156
13849981	574.528
26824	593.732
72793	382.103
21106014	493.498
6296	642.937
14256731	599.231
13860775	434.581
7140	494.354
13869339	436.047
13647	388.310
764	328.347
7800	411.840
8071	546.111
13835932	231.793
7809	366.298
4449	433.572
13839110	472.865
29029	382.802
21106525	481.077
7142	447.502
132	444.608
12220	419.518
20570	449.852
21106144	465.930
7190	489.118
8140	550.803
13869451	440.151
15461	732.433
76394	373.583
7518	550.205
8520	589.092
8883	849.596
6079	523.777
2931	340.520
10536	476.982
25552	532.360
13848808	517.328
10181341	461.966
10328	639.823
15846	380.192
5596	365.559
4962	418.520
13869462	513.930
11871	536.881
10265270	709.690
222538	405.015
768	537.059
2849146	397.250
8674	459.496
13869480	427.570
12635	482.748
65523	401.052
6999	645.040
2441	940.188
7662	640.478
13856352	456.216
7506	517.303
6897	512.704
8186	532.346
15431	605.911
58234	963.324
21106146	456.919
15387	412.756
8574	392.544
1015	464.854
26325090	346.795
13842573	467.698
9564	425.867
221226	429.045
8912	444.949
7848	421.991
13875441	471.988
13863774	452.610
13871718	497.846
10179239	709.690
10227261	689.148
776	552.688
906	650.175
21168813	538.517
4366810	415.366
7170	804.185
12821	396.436
13619	477.385
392	360.167
8097	671.708
299166	465.290
21106013	492.518
13869414	424.213
21111817	570.564
7511	463.897
24641	444.328
21106020	486.513
17131	572.494
10756	740.210
7984	342.820
10404	588.853
13853953	505.198
12218	451.031
21105897	576.449
13862559	647.274
5593	521.440
123	398.475
11773	467.108
13846663	685.753
10451	749.274
7852	419.552
7872	454.899
13662	388.307
12637	393.196
376	360.089
6780	616.525
6794	650.386
21106018	516.412
72551	435.079
15427	520.413
13859497	568.399
11576	606.485
6635	898.046
21111781	477.309
11080	361.918
13835630	378.283
105291	313.651
14846	469.938
13868640	622.632
21105859	476.004
11862	425.078
8910	543.160
14227	576.091
10437210	457.023
11589	569.053
64699	508.763
8098	621.799
589165	631.523
6781	487.738
12933	513.407
13853758	586.166
9893	577.928
6621	553.876
558878	528.504
8855	589.004
10980	593.587
206561	484.859
15855	713.043
13835126	567.732
5882	528.977
13864445	666.586
21170967	478.330
12478	394.208
21105870	509.003
13229	497.373
13849989	539.733
24535	614.104
18019	763.189
73390	457.154
6674	626.989
11591	518.684
67360	438.194
553578	528.504
10437335	452.933
14593	397.812
10432	615.804
7745	236.962
21159695	550.611
7891	541.046
10972	604.210
11557190	746.577
8183	535.431
12219	480.411
880	482.933
1446	506.742
2923	652.109
6775	476.862
12954	442.698
8576	470.896
21105848	534.674
68109	656.947
7882	450.598
120548	510.299
10181339	526.035
6788	760.910
13853943	454.358
11672	462.455
57726	938.911
10892	527.746
6898	613.429
1905	379.877
21106470	583.744
6950	476.147
13860434	527.120
12972	521.226
21106148	473.804
10664	411.294
7890	535.659
71876	546.404
7176	506.557
15965	569.898
67653	458.053
13487	648.848
9088156	629.214
7871	509.270
68224	926.456
18	511.852
4511751	409.793
10181338	510.362
10756390	945.783
84971	346.964
388391	346.964
13871489	511.705
11629	525.0
2241	425.692
21106519	615.168
11460	496.961
7189	486.966
8521	747.953
13876103	658.565
11510	708.173
14349	477.948
7211	492.160
2937774	542.702
11584	658.483
21105998	668.178
6736	778.566
4963	487.490
6789	801.967
6737	826.119
59482	641.348
81814	565.889
14021447	905.671
71	502.741
80863	813.124
955	409.012
7145	446.286
917	813.124
3350	508.620
10616	548.914
7172	497.329
10257	508.075
953	478.731
1151	574.454
21106571	834.284
6827	860.627
11422	593.718
21106163	827.548
10025	417.927
13835344	553.620
15853	496.381
21106140	735.050
10801109	585.233
86394	676.943
21106145	580.175
62310	634.415
13835706	524.657
7092	698.885
1448	557.540
8182	574.316
21106518	527.352
10437239	384.017
13848793	589.591
68676	759.611
16180	599.391
7600	570.480
13846959	433.122
6773	663.820
7340	669.462
13837329	729.574
21106581	572.472
16475	520.767
7146	503.570
185	564.143
6828	789.163
11488212	587.154
6646	346.964
10801842	633.095
16387	516.447
11586	592.020
62472	599.777
16388	585.752
21108576	521.772
6480	617.321
23083	633.469
10628694	541.148
7892	508.812
71437	1201.712
5644	579.543
10909	873.806
10918	874.783
8935	701.004
4510206	432.292
7757	580.402
13846749	564.674
2298886	591.150
6550	656.841
8341	708.771
7208	566.354
11882	593.992
4611	587.644
13835351	649.049
8374	627.268
70682	542.135
13492	708.109
13677	876.528
6739	718.602
17347	713.461
7875	571.239
11777	703.166
7310	556.014
11465	562.273
2157	625.395
8150	611.267
7302	741.601
7202	559.643
7042	598.559
6035	562.760
11776	894.172
10908	889.043
10850	899.527
556589	641.331
7299	836.8
8577	536.351
21106900	621.254
17652	622.653
5915	474.279
10106	407.395
63518	702.459
17868	728.469
6706	671.088
10851	893.008
11588	750.107
79969	704.564
6675	806.801
71193	811.547
2206	788.399
13867714	718.665
4445317	1066.974
10849	895.079
11595	657.199
1906	534.724
6193	1547.383
67270	817.786
16177	554.667
6033	806.036
6478	1007.589
15517	783.137
10841	907.3
13574	481.611
8319	764.823
7964	1380.430
15789876	911.3
21105699	737.359
13622	657.763
10829	913.875
11507	908.139
7585	395.629
6790	748.883
15495	692.196
13860	619.983
10831	913.152
56515	873.171
20124	842.907
744	605.337
10343	676.448
218253	974.141
454319	1954.476
76154	956.020
33084	958.981
67414	848.101
220998	562.296
15867	711.193
7901	567.113
14627	688.971
21106570	1049.574
10449	925.544
10813	917.545
199342	1019.257
15755	997.404
15702	789.133
62484	817.568
4522053	445.953
8273	828.740
11883	652.357
8262	834.574
642951	761.674
15747	766.971
15524	958.351
13837303	855.117
305	495.839
230	540.220
14995	1016.091
10733068	1253.730
256210	683.344
33421	1180.144
67470	985.569
33416	569.831
14994	1014.342
15756	960.082
12938	625.292
6588	824.985
15475	1010.964
7279	629.702
23886	1170.962
14472	789.681
15476	989.268
42330	876.156
2991	900.848
12682	1005.153
4762	938.564
361	563.444
6592	1077.087
11884	613.006
15488	944.617
15478	985.711
21106573	1049.536
11003	814.434
15489	930.670
15861	1027.080
7155	690.199
64155	721.7
2627	777.675
24142	716.148
8073	783.983
44152	886.940
26325080	1064.707
8916	716.361
4267	858.232
33455	1134.906
15619	1018.268
96749	458.308
18336	865.810
5236	844.173
440	470.230
2973	699.291
3173	822.576
2185	789.323
1361549	887.755
7915	625.460
30600	1136.145
1438	992.091
15477	1022.258
10437836	597.560
8120	861.397
26010	1163.055
7152	770.807
13846658	843.759
8470	765.173
3544	932.229
15621	1034.146
33934	1119.703
7913	687.906
7994	463.309
2468	1046.905
6840	1042.898
12133	715.960
11632871	627.722
34863	1389.106
63968	820.227
61739	778.596
68437	1053.182
66895	821.485
26260	1042.362
33932	1143.083
33933	1119.134
5027	736.222
192748	757.837
8282	779.807
5004	534.247
34188	1360.883
13114	591.828
18280	820.668
12024	851.341
2068	847.905
6835	881.182
78998	729.758
72056	598.573
4626	953.295
2169	831.746
23115	750.739
6492	788.509
4103087	663.492
9824	1142.149
15473	1103.663
34664	1346.572
9053802	708.418
37904	1383.382
13856959	912.523
12586	623.401
5368	1373.749
707	1349.002
34665	1335.945
17098	1088.311
17099	1117.832
84188	1221.266
15620	1059.175
8111	1141.626
3210	907.845
49469	1148.994
967	1146.269
158870	1197.283
2915	1347.024
83330	1203.934
157093	1163.312
4768	928.163
34864	1348.831
14993	1252.582
8329	1011.884
970	1170.419
7917	683.833
136000	1207.234
34866	1366.814
83374	1165.309
2297538	885.219
20848	957.326
457145	1187.018
8067	1287.064
37918	1351.897
457140	1216.114
34865	1329.823
8241	975.390
14620	810.247
6593	1051.552
21782117	3334.744
135983	1175.194
10540	769.129
25472	898.019
25605	1336.392
6464	1284.129
25677	1619.689
136001	1180.824
136003	1181.059
34666	1317.346
82753	961.955
10438331	1107.930
2121	1015.788
1278	1085.229
4457	733.685
62265	763.837
11974	1225.330
31991	970.417
481441	975.126
34867	1308.731
84235	1148.605
13087	1125.797
2079	1050.898
2424	978.594
5256	1365.892
7315	821.062
15474	1073.466
37915	1299.174
40191	1574.227
29348	1023.671
26011	1290.855
28287	1093.099
62632	788.149
30932	910.506
22172	911.406
5899	963.015
2297441	937.241
37905	1357.440
3987	785.591
33617	934.456
2283071	1172.136
34830	964.767
16568	1217.943
108106	1254.262
69223	1259.155
35581	1571.519
23912	1234.229
13302	948.979
4932499	1180.673
3006	1006.766
56793	1599.401
13090	1207.084
34868	1328.837
10243	1206.908
13850879	868.229
56791	1558.370
14674	931.438
15729	1327.337
8060	978.810
9040	1099.615
34870	1313.601
30881	889.224
17587	758.256
34869	1310.894
457144	1201.560
5807	975.437
9026	696.831
3008	942.395
4575	1118.681
135925	1224.808
4759	905.426
82777	1531.913
34871	1281.837
454495	1592.029
6688	719.771
36319	1202.944
533188	1562.459
34872	1265.046
10169	1598.582
11891	742.218
56792	1511.927
26325081	1223.732
8058	919.786
20493	1106.064
36278	1439.329
35580	1513.844
82755	1385.145
82842	1486.858
15417	1087.750
46262	1544.287
136002	1219.296
28941	911.184
56123	1522.749
5342	1361.082
56784	1325.971
16182	1502.293
56785	1536.851
56790	1598.578
26563	688.962
13303	924.250
82765	1809.256
82767	1123.102
12705	1023.449
14826	2518.037
30816	1501.449
16481	1078.705
97173	1397.136
102720	1399.039
7051	1104.195
21924	1281.794
102721	1397.021
33458	1607.357
82818	1555.9
3548	1106.009
35579	1546.255
38839	1395.401
27749	921.455
34667	1279.157
56795	1535.363
56788	1534.153
1994	1337.331
8939	1153.852
16482	1188.438
36972	1565.604
21106365	1378.318
4760	1123.545
34873	1262.860
7967	2735.360
559096	1699.688
35582	1493.641
56771	1759.008
13520	1945.995
56774	1837.176
9873	1483.059
3463	3031.350
37744	1819.167
12874	1152.968
46893	1482.672
82807	1521.388
35081	1744.895
56769	1830.568
35584	1530.591
3864	1187.597
13300034	1621.667
10292746	3334.744
33829	1240.863
102833	1405.093
47912	1501.978
13844817	919.832
82817	1504.397
82762	1390.674
2839	1573.212
6842	1681.496
82754	1424.429
157094	1363.745
3229	1106.963
5237	1100.957
82840	1035.567
34189	1525.879
16736498	3104.474
7968	2755.243
29117	1339.523
33304	1485.537
56794	1513.882
13837319	1093.397
457138	1386.988
39406	1779.586
56780	1794.613
27793	1462.219
106355	1423.435
6767	1183.393
34847	1785.698
102897	1390.918
2581	800.610
6417	1644.634
103011	1387.454
82712	1415.885
56781	1773.702
45444	1771.046
102947	1438.389
102933	1377.582
33457	1580.740
8287	1673.320
33280	1488.489
36029	1400.888
46263	1528.610
56777	1722.308
33666	2000.266
56787	1525.580
16736486	3269.502
102801	1442.475
82873	2068.107
8288	1611.155
4025	1475.657
17339596	1196.806
33456	1463.730
2629	1246.586
33386	1506.652
2003	3243.249
6514	1514.307
36973	1806.343
97172	1343.826
36974	1745.662
82819	1783.771
15572	1249.411
102856	1430.013
13115	1241.178
8800	1590.546
29153	1590.724
35583	1508.664
82820	1751.970
45445	1732.119
4886542	N/A
103066	1403.542
46894	1795.289
32873	1118.446
35563	1008.485
17684	1401.314
44885	1463.151
46710	1561.325
33326	1662.339
4745	930.707
26325088	849.225
56772	1747.816
34848	1712.970
56760	2029.203
84346	2061.575
26325085	843.785
28552	987.492
12364	2063.914
56755	2075.670
82796	1432.783
35265	1345.060
56789	1459.640
4599	1271.869
24638	1122.437
56768	1715.084
13328	3141.549
4437893	1042.918
6371	1306.223
56778	1766.172
3277	1208.629
4526760	1244.202
21568	1020.373
96948	1619.324
16415	1858.925
193215	3243.249
26325087	845.491
37779	1795.894
56779	1761.672
11274	1370.014
35585	1746.418
84344	1773.532
56786	1491.043
82797	1532.346
5363	1272.976
541032	1117.109
31129	3456.363
37749	1426.170
56776	1710.204
46264	1473.262
83413	1984.568
43354	1734.354
457139	1432.853
21429023	3269.502
97055	1607.826
4927801	1662.337
34859	2058.734
7260	1188.298
19939	1370.705
56756	2007.924
4719431	1330.045
102798	1448.150
36976	2020.814
45446	1691.694
56767	1962.640
8093	1034.645
29631	1645.537
34850	1740.055
14348	859.006
559213	1603.440
6453	1505.150
84345	1752.606
56766	2004.626
102722	1645.123
33281	1456.030
1262	1189.433
36975	1767.870
154865	1629.320
102741	1636.447
26325082	1382.756
32555	1214.535
82740	2086.892
215802	1762.473
30459	1390.781
23977588	3104.474
4333	1161.235
18941	1221.301
97198	1638.661
37019	2012.874
82783	2028.636
37000	2041.593
39198	1984.294
56765	1992.261
46285	1752.680
4938407	3104.474
46284	1703.547
82806	1713.012
19722	1392.017
34116	1443.6
34668	1725.975
34851	1990.354
56773	1707.299
82798	1686.080
29282	1213.729
47913	1732.240
5772	3269.502
28827	1150.365
26915	1458.127
6066	1014.191
32952	1685.573
48518	1441.045
84347	1967.914
75956	980.931
102857	1594.507
43353	1695.354
83414	2255.090
2940	3334.744
18445	1331.694
25304	1415.408
102787	1648.725
18444	1228.412
15010	1201.224
82823	2270.188
83411	1198.289
102742	1654.916
34190	1969.537
56761	2032.704
47914	1979.645
102743	1655.733
66326	1522.851
56559	942.015
35529	1256.717
36710	1948.236
7991	1206.182
33832	1475.662
34852	2012.075
2927	1695.496
154866	1623.878
35588	1601.357
59833	1639.374
12730	1172.248
8243	1210.513
15699	1389.175
64559	1241.692
56023	1923.051
56782	2285.684
549017	2037.866
97240	1674.344
33282	1706.824
20545	968.197
36977	2301.363
4066	1730.192
2457	1623.224
77706	1663.519
4813314	1515.682
56770	1675.338
29847	1186.720
56763	1939.519
56757	1959.143
102834	1692.223
7928	917.404
4939096	3104.474
36771	1981.570
56764	1970.351
9817	1444.121
36978	1969.823
34191	1967.010
84348	2336.814
45678	1966.284
7929	1002.720
82738	2237.658
37994	1341.686
106356	1642.122
36979	2252.135
10085	1688.530
39407	1524.066
11369	1661.365
56762	2014.696
37745	2002.147
36981	2214.074
56758	1966.057
4744	995.8
36980	2227.973
11359	1759.919
6057	1664.760
56775	1670.271
6640	1855.509
37004	2279.689
4956170	1805.051
34853	1970.565
56783	2224.153
4941232	1800.177
82736	1943.975
47915	2262.444
4060	1995.691
16139	2025.012
2635909	1606.519
15822	1780.062
13338	3199.612
12543	2020.339
36983	2235.862
96868	1861.130
96864	1858.843
56759	1926.355
6058	1757.984
36982	2249.828
33983	1927.527
36984	1906.816
82831	1899.209
45447	2300.535
33407	2514.167
2271976	1668.348
4575338	2444.036
24388	1085.416
3171	1475.921
12367	1524.550
15637	2548.189
82821	2532.864
34860	2253.529
11936	1915.931
72522	975.803
82786	1928.282
6542	2003.008
97224	1895.577
97234	1881.613
5148	1512.098
34854	1936.302
3534	1569.703
46137	2236.298
12536	1551.731
77887	1989.623
6559	1411.098
33984	1949.046
26325084	1700.802
11897	1061.120
9242615	1889.505
97233	1885.931
26325083	1541.779
46525	1857.905
7988	1224.141
46136	1928.201
33142	1373.783
33141	1271.021
34418	1618.412
5739	1696.192
97142	1905.832
2928	1946.037
8817	1726.872
36986	2208.016
82834	1692.523
47916	2187.656
8078	1429.362
4617	1895.364
550258	2200.403
35205	2530.895
36985	2565.149
46739	1185.903
3326	1933.327
35566	2225.947
55075	1475.306
2908	1808.161
4913	1426.989
4777	1248.3
2181	1434.877
6528	1327.321
5557	1670.734
97257	1909.981
6639	2074.679
33986	2207.299
45448	2513.659
33316	1888.415
36988	2488.388
105648	1643.732
82679	2201.262
35912	2479.852
102923	1937.093
8004	2128.537
11898	1034.203
36987	2495.385
20390	1795.218
3972	1902.037
5590	1352.021
11899	1119.520
154958	2030.623
3513	1908.723
7970	2118.891
154062	1867.775
4629	1690.958
36990	2510.310
85876	1770.661
26916	1951.650
77764	1939.630
33985	2185.646
35108	2161.634
82751	2796.259
5660	2046.027
36989	2814.649
6519	1629.103
11917	2655.280
2925	1502.538
16576	1592.781
4447447	2545.076
2284017	2158.265
5554	2070.592
39394	2062.782
509179	1101.760
77874	1705.381
4444070	1392.360
4228778	993.929
82822	2458.602
43456	1875.850
24247	1515.693
4445165	2190.778
34192	2448.041
37764	2036.773
2342810	1864.964
2075	1946.554
12017	1177.920
6367	2087.844
77933	2285.357
2768	1568.033
11283	1350.956
5791	2378.527
96965	2148.351
33198	2176.137
91304	2219.922
35206	2758.494
6281	1516.062
82759	1883.194
66316	1708.451
154959	2303.749
8804	2139.901
8799	2197.978
82870	2045.172
5376	1418.549
5553	2152.179
15484	3082.732
135795	2131.348
49560	2130.089
2246	2190.578
12072	1236.320
21106505	1729.324
36968	1928.921
2625	2205.596
33255	2101.131
4444102	1531.375
5198	1891.317
82852	2299.731
2699	2057.621
5773	2637.615
4444107	2242.388
11900	1294.720
26325089	2653.884
77730	2195.182
39145	2642.873
8103122	1795.192
11901	1353.120
6366	2534.731
5932	2688.595
15827	2452.111
136695	2436.402
29089	1414.188
5678	2262.550
5768	1406.086
8763	2727.715
11146	1411.520
5113	3440.768
17499	2447.328
24722	1516.391
94701	2591.788
11902	1469.920
6013	2190.667
31006	2245.840
34697	2468.674
18949	3005.838
10162	2731.122
48085	2457.001
49179	2608.415
10542	1703.521
104816	3209.637
75995	1749.961
15520	2837.369
1043	2207.517
65272	4496.625
11906	1937.122
4067	2580.550
75662	3587.938
29400	3616.909
4444362	3109.9
6045	5259.896